thisN,thisTrialN,thisRepN,key_resp.keys,key_resp.corr,key_resp.rt,key_resp.duration,tilt,trials.thisRepN,trials.thisTrialN,trials.thisN,trials.thisIndex,thisRow.t,notes,trial.started,fixation.started,key_resp.started,fixation.stopped,trial.stopped,trials.key_resp.keys,trials.key_resp.corr,trials.key_resp.rt,trials.key_resp.duration,trials.tilt,participant,session,date,expName,expVersion,psychopyVersion,frameRate,expStart,
0,0,0,up,1,0.4783956000001126,None,0,0,0,0,0,0.041765099999793165,,0.026532200000019657,0.041765099999793165,1.02256159999979,1.0570193999997173,1.6248819999996158,up,1,0.4783956000001126,None,0,fin,001,2025-09-07_19h19.59.731,signal detection,,2025.1.1,60.09525097279052,2025-09-07 19h20.08.677252 +0530,
1,0,1,up,0,0.5977769999999509,None,1,1,0,1,0,1.6396263999999974,,1.62518799999998,1.6396263999999974,2.6392751999997017,2.6392751999997017,3.2387966999999662,up,0,0.5977769999999509,None,1,fin,001,2025-09-07_19h19.59.731,signal detection,,2025.1.1,60.09525097279052,2025-09-07 19h20.08.677252 +0530,
2,0,2,up,1,0.6445377000000008,None,0,2,0,2,0,3.2552928999998585,,3.2392219999996996,3.2552928999998585,4.253858399999899,4.27052249999997,4.903889599999729,up,1,0.6445377000000008,None,0,fin,001,2025-09-07_19h19.59.731,signal detection,,2025.1.1,60.09525097279052,2025-09-07 19h20.08.677252 +0530,
3,0,3,down,1,0.5679660000000695,None,-4,3,0,3,0,4.919689299999845,,4.904359099999965,4.919689299999845,5.918800399999782,5.918800399999782,6.502725899999859,down,1,0.5679660000000695,None,-4,fin,001,2025-09-07_19h19.59.731,signal detection,,2025.1.1,60.09525097279052,2025-09-07 19h20.08.677252 +0530,
4,0,4,down,0,0.5096371999998155,None,0,4,0,4,0,6.5184848999997484,,6.503138300000046,6.5184848999997484,7.517164299999877,7.517164299999877,8.033644599999661,down,0,0.5096371999998155,None,0,fin,001,2025-09-07_19h19.59.731,signal detection,,2025.1.1,60.09525097279052,2025-09-07 19h20.08.677252 +0530,
5,0,5,up,1,0.5998200000003635,None,0,5,0,5,0,8.050165899999683,,8.03406300000006,8.050165899999683,9.049050999999963,9.065692799999852,9.665448499999911,up,1,0.5998200000003635,None,0,fin,001,2025-09-07_19h19.59.731,signal detection,,2025.1.1,60.09525097279052,2025-09-07 19h20.08.677252 +0530,
6,0,6,up,1,0.6056928000002699,None,0,6,0,6,0,9.681607299999996,,9.665893800000049,9.681607299999996,10.680655399999978,10.680655399999978,11.297545399999763,up,1,0.6056928000002699,None,0,fin,001,2025-09-07_19h19.59.731,signal detection,,2025.1.1,60.09525097279052,2025-09-07 19h20.08.677252 +0530,
7,0,7,down,0,0.8172971999997571,None,0,7,0,7,0,11.313394099999641,,11.29796989999977,11.313394099999641,12.312415999999757,12.312415999999757,13.146016099999997,down,0,0.8172971999997571,None,0,fin,001,2025-09-07_19h19.59.731,signal detection,,2025.1.1,60.09525097279052,2025-09-07 19h20.08.677252 +0530,
8,0,8,up,1,0.5108693000001949,None,0,8,0,8,0,13.1618469,,13.146428900000046,13.1618469,14.16067669999984,14.16067669999984,14.676892799999678,up,1,0.5108693000001949,None,0,fin,001,2025-09-07_19h19.59.731,signal detection,,2025.1.1,60.09525097279052,2025-09-07 19h20.08.677252 +0530,
9,0,9,down,1,0.29474149999987276,None,2,9,0,9,0,14.693026799999643,,14.677357799999754,14.693026799999643,15.692861099999845,15.692861099999845,15.992569799999728,down,1,0.29474149999987276,None,2,fin,001,2025-09-07_19h19.59.731,signal detection,,2025.1.1,60.09525097279052,2025-09-07 19h20.08.677252 +0530,
10,0,10,up,1,0.2868526999995993,None,0,10,0,10,0,16.009018999999626,,15.99305269999968,16.009018999999626,17.00817049999978,17.00817049999978,17.30874509999967,up,1,0.2868526999995993,None,0,fin,001,2025-09-07_19h19.59.731,signal detection,,2025.1.1,60.09525097279052,2025-09-07 19h20.08.677252 +0530,
11,0,11,down,0,0.3074540000002344,None,0,11,0,11,0,17.324090599999636,,17.309161099999983,17.324090599999636,18.323454200000015,18.33971819999988,18.63981079999985,down,0,0.3074540000002344,None,0,fin,001,2025-09-07_19h19.59.731,signal detection,,2025.1.1,60.09525097279052,2025-09-07 19h20.08.677252 +0530,
12,0,12,down,1,0.48657500000035725,None,-2,12,0,12,0,18.65606170000001,,18.640277699999842,18.65606170000001,19.65554529999963,19.65554529999963,20.155217999999877,down,1,0.48657500000035725,None,-2,fin,001,2025-09-07_19h19.59.731,signal detection,,2025.1.1,60.09525097279052,2025-09-07 19h20.08.677252 +0530,
13,0,13,down,0,0.6054306999999426,None,0,13,0,13,0,20.171726000000035,,20.15564919999997,20.171726000000035,21.17020769999999,21.187002099999972,21.786725699999806,down,0,0.6054306999999426,None,0,fin,001,2025-09-07_19h19.59.731,signal detection,,2025.1.1,60.09525097279052,2025-09-07 19h20.08.677252 +0530,
14,0,14,down,1,0.6439123000000109,None,-5,14,0,14,0,21.803283199999896,,21.78719639999963,21.803283199999896,22.802220000000034,22.818737399999918,23.45148930000005,down,1,0.6439123000000109,None,-5,fin,001,2025-09-07_19h19.59.731,signal detection,,2025.1.1,60.09525097279052,2025-09-07 19h20.08.677252 +0530,
15,0,15,down,1,0.7288300999998683,None,1,15,0,15,0,23.467888899999707,,23.45194790000005,23.467888899999707,24.467347599999812,24.467347599999812,25.200281699999778,down,1,0.7288300999998683,None,1,fin,001,2025-09-07_19h19.59.731,signal detection,,2025.1.1,60.09525097279052,2025-09-07 19h20.08.677252 +0530,
16,0,16,up,1,0.5906384999998409,None,0,16,0,16,0,25.216211499999645,,25.20070259999966,25.216211499999645,26.21521699999994,26.21521699999994,26.814987299999757,up,1,0.5906384999998409,None,0,fin,001,2025-09-07_19h19.59.731,signal detection,,2025.1.1,60.09525097279052,2025-09-07 19h20.08.677252 +0530,
17,0,17,up,1,0.5841553999998723,None,0,17,0,17,0,26.83130170000004,,26.815431999999873,26.83130170000004,27.830175199999758,27.847176099999615,28.430130599999757,up,1,0.5841553999998723,None,0,fin,001,2025-09-07_19h19.59.731,signal detection,,2025.1.1,60.09525097279052,2025-09-07 19h20.08.677252 +0530,
18,0,18,up,1,0.6362469000000601,None,0,18,0,18,0,28.44600109999965,,28.430545599999732,28.44600109999965,29.44546599999967,29.46455930000002,30.09476719999975,up,1,0.6362469000000601,None,0,fin,001,2025-09-07_19h19.59.731,signal detection,,2025.1.1,60.09525097279052,2025-09-07 19h20.08.677252 +0530,
19,0,19,down,1,0.9361915999998018,None,3,19,0,19,0,30.11141459999999,,30.09523399999989,30.11141459999999,31.11035989999982,31.12677369999983,32.060182899999745,down,1,0.9361915999998018,None,3,fin,001,2025-09-07_19h19.59.731,signal detection,,2025.1.1,60.09525097279052,2025-09-07 19h20.08.677252 +0530,
20,0,20,down,1,0.7610920000001897,None,4,20,0,20,0,32.076375299999654,,32.060652899999695,32.076375299999654,33.0754895,33.09143389999963,33.841098599999896,down,1,0.7610920000001897,None,4,fin,001,2025-09-07_19h19.59.731,signal detection,,2025.1.1,60.09525097279052,2025-09-07 19h20.08.677252 +0530,
21,0,21,down,1,0.6774003000000448,None,-5,21,0,21,0,33.857554400000026,,33.841556200000014,33.857554400000026,34.856661299999814,34.873828299999786,35.540671199999906,down,1,0.6774003000000448,None,-5,fin,001,2025-09-07_19h19.59.731,signal detection,,2025.1.1,60.09525097279052,2025-09-07 19h20.08.677252 +0530,
22,0,22,up,1,0.5963276000002224,None,0,22,0,22,0,35.555915899999945,,35.54442930000005,35.555915899999945,36.554716299999654,36.57186539999975,37.15519799999993,up,1,0.5963276000002224,None,0,fin,001,2025-09-07_19h19.59.731,signal detection,,2025.1.1,60.09525097279052,2025-09-07 19h20.08.677252 +0530,
23,0,23,up,1,0.5162980000000061,None,0,23,0,23,0,37.170870999999806,,37.15562239999963,37.170870999999806,38.16981880000003,38.16981880000003,38.703268699999626,up,1,0.5162980000000061,None,0,fin,001,2025-09-07_19h19.59.731,signal detection,,2025.1.1,60.09525097279052,2025-09-07 19h20.08.677252 +0530,
24,0,24,down,1,0.537612099999933,None,-5,24,0,24,0,38.719389800000044,,38.70380690000002,38.719389800000044,39.7027079999998,39.71933869999975,40.251338699999906,down,1,0.537612099999933,None,-5,fin,001,2025-09-07_19h19.59.731,signal detection,,2025.1.1,60.09525097279052,2025-09-07 19h20.08.677252 +0530,
25,0,25,down,1,0.9134616999999707,None,2,25,0,25,0,40.26758519999976,,40.25179119999984,40.26758519999976,41.26660879999963,41.26660879999963,42.18383709999989,down,1,0.9134616999999707,None,2,fin,001,2025-09-07_19h19.59.731,signal detection,,2025.1.1,60.09525097279052,2025-09-07 19h20.08.677252 +0530,
26,0,26,down,0,0.6225804000000608,None,0,26,0,26,0,42.19918899999993,,42.18425320000006,42.19918899999993,43.19859369999995,43.2147474999997,43.831441599999835,down,0,0.6225804000000608,None,0,fin,001,2025-09-07_19h19.59.731,signal detection,,2025.1.1,60.09525097279052,2025-09-07 19h20.08.677252 +0530,
27,0,27,up,1,0.5333911999996417,None,0,27,0,27,0,43.84756279999965,,43.83210429999963,43.84756279999965,44.84688049999977,44.86319000000003,45.397089999999935,up,1,0.5333911999996417,None,0,fin,001,2025-09-07_19h19.59.731,signal detection,,2025.1.1,60.09525097279052,2025-09-07 19h20.08.677252 +0530,
28,0,28,down,1,0.5526746999998977,None,-4,28,0,28,0,45.41252659999964,,45.39756539999962,45.41252659999964,46.411452499999996,46.411452499999996,46.97869919999994,down,1,0.5526746999998977,None,-4,fin,001,2025-09-07_19h19.59.731,signal detection,,2025.1.1,60.09525097279052,2025-09-07 19h20.08.677252 +0530,
29,0,29,up,0,0.5797311999999692,None,3,29,0,29,0,46.99477139999999,,46.979154899999685,46.99477139999999,47.99361980000003,48.010811099999955,48.57765930000005,up,0,0.5797311999999692,None,3,fin,001,2025-09-07_19h19.59.731,signal detection,,2025.1.1,60.09525097279052,2025-09-07 19h20.08.677252 +0530,
30,0,30,down,1,0.5417660000002797,None,4,30,0,30,0,48.593006299999615,,48.57812729999978,48.593006299999615,49.59172779999972,49.608599199999844,50.14187879999963,down,1,0.5417660000002797,None,4,fin,001,2025-09-07_19h19.59.731,signal detection,,2025.1.1,60.09525097279052,2025-09-07 19h20.08.677252 +0530,
31,0,31,down,1,0.41251759999977367,None,3,31,0,31,0,50.158098099999734,,50.14233439999998,50.158098099999734,51.15742829999999,51.15742829999999,51.5742436999999,down,1,0.41251759999977367,None,3,fin,001,2025-09-07_19h19.59.731,signal detection,,2025.1.1,60.09525097279052,2025-09-07 19h20.08.677252 +0530,
32,0,32,down,1,0.3343563999997059,None,2,32,0,32,0,51.58965229999967,,51.57473600000003,51.58965229999967,52.588784399999895,52.588784399999895,52.93912969999974,down,1,0.3343563999997059,None,2,fin,001,2025-09-07_19h19.59.731,signal detection,,2025.1.1,60.09525097279052,2025-09-07 19h20.08.677252 +0530,
33,0,33,down,1,0.414762299999893,None,2,33,0,33,0,52.9558592999997,,52.939594399999805,52.9558592999997,53.95461589999968,53.97074519999978,54.37163250000003,down,1,0.414762299999893,None,2,fin,001,2025-09-07_19h19.59.731,signal detection,,2025.1.1,60.09525097279052,2025-09-07 19h20.08.677252 +0530,
34,0,34,down,1,0.3970078000002104,None,1,34,0,34,0,54.38784689999966,,54.37208499999997,54.38784689999966,55.38634479999973,55.40269279999984,55.78674150000006,down,1,0.3970078000002104,None,1,fin,001,2025-09-07_19h19.59.731,signal detection,,2025.1.1,60.09525097279052,2025-09-07 19h20.08.677252 +0530,
35,0,35,down,1,3.1173616999999467,None,3,35,0,35,0,55.8026319999999,,55.78720720000001,55.8026319999999,56.78479359999983,56.81787809999969,59.915576299999884,down,1,3.1173616999999467,None,3,fin,001,2025-09-07_19h19.59.731,signal detection,,2025.1.1,60.09525097279052,2025-09-07 19h20.08.677252 +0530,
36,0,36,down,1,0.6035237000000961,None,-3,36,0,36,0,59.93158649999987,,59.91628519999995,59.93158649999987,60.93046519999962,60.94705369999974,61.5470535999998,down,1,0.6035237000000961,None,-3,fin,001,2025-09-07_19h19.59.731,signal detection,,2025.1.1,60.09525097279052,2025-09-07 19h20.08.677252 +0530,
37,0,37,down,1,0.48787410000022646,None,-5,37,0,37,0,61.56320909999977,,61.54751659999965,61.56320909999977,62.56251109999994,62.56251109999994,63.0628472999997,down,1,0.48787410000022646,None,-5,fin,001,2025-09-07_19h19.59.731,signal detection,,2025.1.1,60.09525097279052,2025-09-07 19h20.08.677252 +0530,
38,0,38,up,0,0.5703046000003269,None,3,38,0,38,0,63.078624299999774,,63.0633671999999,63.078624299999774,64.07797489999984,64.07797489999984,64.66081209999993,up,0,0.5703046000003269,None,3,fin,001,2025-09-07_19h19.59.731,signal detection,,2025.1.1,60.09525097279052,2025-09-07 19h20.08.677252 +0530,
39,0,39,up,1,0.4098527000001013,None,0,39,0,39,0,64.67730679999977,,64.66122819999964,64.67730679999977,65.67639699999972,65.67639699999972,66.09249749999981,up,1,0.4098527000001013,None,0,fin,001,2025-09-07_19h19.59.731,signal detection,,2025.1.1,60.09525097279052,2025-09-07 19h20.08.677252 +0530,
40,0,40,down,1,0.32047460000012506,None,3,40,0,40,0,66.10890410000002,,66.09301229999983,66.10890410000002,67.10794279999982,67.10794279999982,67.44198419999975,down,1,0.32047460000012506,None,3,fin,001,2025-09-07_19h19.59.731,signal detection,,2025.1.1,60.09525097279052,2025-09-07 19h20.08.677252 +0530,
41,0,41,down,0,0.5252369999998336,None,0,41,0,41,0,67.4578763999998,,67.44240749999972,67.4578763999998,68.45665019999979,68.47335469999962,68.9897477999998,down,0,0.5252369999998336,None,0,fin,001,2025-09-07_19h19.59.731,signal detection,,2025.1.1,60.09525097279052,2025-09-07 19h20.08.677252 +0530,
42,0,42,up,1,0.6177189999998518,None,0,42,0,42,0,69.00595449999992,,68.99017219999996,69.00595449999992,70.00480560000005,70.00480560000005,70.63845300000003,up,1,0.6177189999998518,None,0,fin,001,2025-09-07_19h19.59.731,signal detection,,2025.1.1,60.09525097279052,2025-09-07 19h20.08.677252 +0530,
43,0,43,down,1,0.5985083999999006,None,-5,43,0,43,0,70.65485779999972,,70.63893280000002,70.65485779999972,71.65341179999996,71.67043409999997,72.25336870000001,down,1,0.5985083999999006,None,-5,fin,001,2025-09-07_19h19.59.731,signal detection,,2025.1.1,60.09525097279052,2025-09-07 19h20.08.677252 +0530,
44,0,44,down,1,0.7390656000002309,None,3,44,0,44,0,72.26940669999976,,72.25382799999988,72.26940669999976,73.26855129999967,73.26855129999967,74.01850579999973,down,1,0.7390656000002309,None,3,fin,001,2025-09-07_19h19.59.731,signal detection,,2025.1.1,60.09525097279052,2025-09-07 19h20.08.677252 +0530,
45,0,45,up,1,0.9064555999998447,None,0,45,0,45,0,74.03442589999986,,74.01892959999986,74.03442589999986,75.03343889999996,75.05006229999981,75.94946649999974,up,1,0.9064555999998447,None,0,fin,001,2025-09-07_19h19.59.731,signal detection,,2025.1.1,60.09525097279052,2025-09-07 19h20.08.677252 +0530,
46,0,46,down,0,1.969881600000008,None,0,46,0,46,0,75.96601059999966,,75.94989279999982,75.96601059999966,76.96488339999996,76.98148649999985,78.94655749999993,down,0,1.969881600000008,None,0,fin,001,2025-09-07_19h19.59.731,signal detection,,2025.1.1,60.09525097279052,2025-09-07 19h20.08.677252 +0530,
47,0,47,up,1,0.595224799999869,None,0,47,0,47,0,78.96326109999973,,78.94698199999993,78.96326109999973,79.96187409999993,79.97852220000004,80.56169619999991,up,1,0.595224799999869,None,0,fin,001,2025-09-07_19h19.59.731,signal detection,,2025.1.1,60.09525097279052,2025-09-07 19h20.08.677252 +0530,
48,0,48,up,1,0.5421482000001561,None,0,48,0,48,0,80.57865399999991,,80.56213049999997,80.57865399999991,81.57769749999989,81.59351359999982,82.12667740000006,up,1,0.5421482000001561,None,0,fin,001,2025-09-07_19h19.59.731,signal detection,,2025.1.1,60.09525097279052,2025-09-07 19h20.08.677252 +0530,
49,0,49,up,1,0.53877969999985,None,0,49,0,49,0,82.14291209999965,,82.12710509999988,82.14291209999965,83.14197739999963,83.14197739999963,83.69207119999965,up,1,0.53877969999985,None,0,fin,001,2025-09-07_19h19.59.731,signal detection,,2025.1.1,60.09525097279052,2025-09-07 19h20.08.677252 +0530,
50,0,50,down,1,0.6989355000000614,None,-2,50,0,50,0,83.70811619999995,,83.69252689999985,83.70811619999995,84.70711689999962,84.70711689999962,85.40695229999983,down,1,0.6989355000000614,None,-2,fin,001,2025-09-07_19h19.59.731,signal detection,,2025.1.1,60.09525097279052,2025-09-07 19h20.08.677252 +0530,
51,0,51,down,1,0.7313107999998465,None,-2,51,0,51,0,85.42305249999981,,85.40740899999992,85.42305249999981,86.42207629999984,86.43879549999974,87.15628809999998,down,1,0.7313107999998465,None,-2,fin,001,2025-09-07_19h19.59.731,signal detection,,2025.1.1,60.09525097279052,2025-09-07 19h20.08.677252 +0530,
52,0,52,down,1,0.5062121000000843,None,-2,52,0,52,0,87.17155719999982,,87.15674239999998,87.17155719999982,88.17039290000002,88.18700709999985,88.68726239999978,down,1,0.5062121000000843,None,-2,fin,001,2025-09-07_19h19.59.731,signal detection,,2025.1.1,60.09525097279052,2025-09-07 19h20.08.677252 +0530,
53,0,53,down,1,0.42970050000030824,None,-3,53,0,53,0,88.70302119999997,,88.68774159999975,88.70302119999997,89.70210289999977,89.70210289999977,90.1364051999999,down,1,0.42970050000030824,None,-3,fin,001,2025-09-07_19h19.59.731,signal detection,,2025.1.1,60.09525097279052,2025-09-07 19h20.08.677252 +0530,
54,0,54,up,0,0.5438524000001053,None,1,54,0,54,0,90.15191490000007,,90.13686869999992,90.15191490000007,91.1507345,91.16733429999977,91.70021700000007,up,0,0.5438524000001053,None,1,fin,001,2025-09-07_19h19.59.731,signal detection,,2025.1.1,60.09525097279052,2025-09-07 19h20.08.677252 +0530,
55,0,55,down,1,0.5060097000000496,None,-2,55,0,55,0,91.7168029999998,,91.70067659999995,91.7168029999998,92.6991622999999,92.71576549999963,93.21621770000002,down,1,0.5060097000000496,None,-2,fin,001,2025-09-07_19h19.59.731,signal detection,,2025.1.1,60.09525097279052,2025-09-07 19h20.08.677252 +0530,
56,0,56,down,1,0.5106469000002107,None,-5,56,0,56,0,93.23186289999967,,93.21667539999999,93.23186289999967,94.23128589999988,94.23128589999988,94.74802989999989,down,1,0.5106469000002107,None,-5,fin,001,2025-09-07_19h19.59.731,signal detection,,2025.1.1,60.09525097279052,2025-09-07 19h20.08.677252 +0530,
57,0,57,down,1,0.4242746999998417,None,1,57,0,57,0,94.76415819999966,,94.74848999999995,94.76415819999966,95.76280749999978,95.77986569999985,96.19601079999984,down,1,0.4242746999998417,None,1,fin,001,2025-09-07_19h19.59.731,signal detection,,2025.1.1,60.09525097279052,2025-09-07 19h20.08.677252 +0530,
58,0,58,down,0,0.530968699999903,None,0,58,0,58,0,96.21230489999971,,96.19644169999992,96.21230489999971,97.21162089999962,97.22810619999973,97.74521430000004,down,0,0.530968699999903,None,0,fin,001,2025-09-07_19h19.59.731,signal detection,,2025.1.1,60.09525097279052,2025-09-07 19h20.08.677252 +0530,
59,0,59,down,1,0.5108358999996199,None,1,59,0,59,0,97.76073389999965,,97.74568980000004,97.76073389999965,98.7597794999997,98.7597794999997,99.27632549999998,down,1,0.5108358999996199,None,1,fin,001,2025-09-07_19h19.59.731,signal detection,,2025.1.1,60.09525097279052,2025-09-07 19h20.08.677252 +0530,
60,0,60,down,0,0.5593590999997105,None,0,60,0,60,0,99.29245469999978,,99.27676259999998,99.29245469999978,100.27505989999963,100.29146850000006,100.84109539999963,down,0,0.5593590999997105,None,0,fin,001,2025-09-07_19h19.59.731,signal detection,,2025.1.1,60.09525097279052,2025-09-07 19h20.08.677252 +0530,
61,0,61,up,0,0.7013504999999896,None,2,61,0,61,0,100.85804849999977,,100.84155239999973,100.85804849999977,101.84023849999994,101.87339769999971,102.55723979999993,up,0,0.7013504999999896,None,2,fin,001,2025-09-07_19h19.59.731,signal detection,,2025.1.1,60.09525097279052,2025-09-07 19h20.08.677252 +0530,
62,0,62,down,1,1.0678013000001556,None,4,62,0,62,0,102.57285449999972,,102.55770540000003,102.57285449999972,103.57163009999977,103.58831859999964,104.65520049999986,down,1,1.0678013000001556,None,4,fin,001,2025-09-07_19h19.59.731,signal detection,,2025.1.1,60.09525097279052,2025-09-07 19h20.08.677252 +0530,
63,0,63,down,1,0.5638761000000159,None,-2,63,0,63,0,104.67079590000003,,104.65569109999979,104.67079590000003,105.66963579999992,105.68656069999997,106.23684689999982,down,1,0.5638761000000159,None,-2,fin,001,2025-09-07_19h19.59.731,signal detection,,2025.1.1,60.09525097279052,2025-09-07 19h20.08.677252 +0530,
64,0,64,up,1,0.7761234999998123,None,0,64,0,64,0,106.25259059999962,,106.23727419999977,106.25259059999962,107.25145099999963,107.25145099999963,108.03394720000006,up,1,0.7761234999998123,None,0,fin,001,2025-09-07_19h19.59.731,signal detection,,2025.1.1,60.09525097279052,2025-09-07 19h20.08.677252 +0530,
65,0,65,down,0,0.4261400999998841,None,0,65,0,65,0,108.05048139999963,,108.03436220000003,108.05048139999963,109.04949959999976,109.04949959999976,109.48269329999994,down,0,0.4261400999998841,None,0,fin,001,2025-09-07_19h19.59.731,signal detection,,2025.1.1,60.09525097279052,2025-09-07 19h20.08.677252 +0530,
66,0,66,up,1,0.7213385999998536,None,0,66,0,66,0,109.49934189999976,,109.48311059999969,109.49934189999976,110.49876429999995,110.49876429999995,111.23143690000006,up,1,0.7213385999998536,None,0,fin,001,2025-09-07_19h19.59.731,signal detection,,2025.1.1,60.09525097279052,2025-09-07 19h20.08.677252 +0530,
67,0,67,up,0,0.7075657000000319,None,1,67,0,67,0,111.24732539999968,,111.23190269999986,111.24732539999968,112.24593549999963,112.24593549999963,112.96133669999972,up,0,0.7075657000000319,None,1,fin,001,2025-09-07_19h19.59.731,signal detection,,2025.1.1,60.09525097279052,2025-09-07 19h20.08.677252 +0530,
68,0,68,up,0,0.5337245000000621,None,3,68,0,68,0,112.9776668999998,,112.96163660000002,112.9776668999998,113.96133259999988,113.97780079999984,114.51169359999994,up,0,0.5337245000000621,None,3,fin,001,2025-09-07_19h19.59.731,signal detection,,2025.1.1,60.09525097279052,2025-09-07 19h20.08.677252 +0530,
69,0,69,down,1,0.6190466000002743,None,4,69,0,69,0,114.52775729999985,,114.51231400000006,114.52775729999985,115.52644579999969,115.52644579999969,116.1602042999998,down,1,0.6190466000002743,None,4,fin,001,2025-09-07_19h19.59.731,signal detection,,2025.1.1,60.09525097279052,2025-09-07 19h20.08.677252 +0530,
70,0,70,down,0,0.6114612999999736,None,0,70,0,70,0,116.17603099999997,,116.1606168999997,116.17603099999997,117.17521979999992,117.1918354999998,117.79124319999983,down,0,0.6114612999999736,None,0,fin,001,2025-09-07_19h19.59.731,signal detection,,2025.1.1,60.09525097279052,2025-09-07 19h20.08.677252 +0530,
71,0,71,up,1,0.5248869000001832,None,0,71,0,71,0,117.80743919999986,,117.79166649999979,117.80743919999986,118.80657369999972,118.80657369999972,119.33966199999986,up,1,0.5248869000001832,None,0,fin,001,2025-09-07_19h19.59.731,signal detection,,2025.1.1,60.09525097279052,2025-09-07 19h20.08.677252 +0530,
72,0,72,down,0,0.3534030000000712,None,0,72,0,72,0,119.35602010000002,,119.34007169999995,119.35602010000002,120.35498129999996,120.35498129999996,120.72201469999982,down,0,0.3534030000000712,None,0,fin,001,2025-09-07_19h19.59.731,signal detection,,2025.1.1,60.09525097279052,2025-09-07 19h20.08.677252 +0530,
73,0,73,down,1,0.5127176000000873,None,-2,73,0,73,0,120.7375090999999,,120.72248479999962,120.7375090999999,121.73689259999992,121.73689259999992,122.25384159999976,down,1,0.5127176000000873,None,-2,fin,001,2025-09-07_19h19.59.731,signal detection,,2025.1.1,60.09525097279052,2025-09-07 19h20.08.677252 +0530,
74,0,74,down,1,0.5271959000001516,None,-2,74,0,74,0,122.26999679999972,,122.25430929999993,122.26999679999972,123.26879569999983,123.28572809999969,123.8016018999997,down,1,0.5271959000001516,None,-2,fin,001,2025-09-07_19h19.59.731,signal detection,,2025.1.1,60.09525097279052,2025-09-07 19h20.08.677252 +0530,
75,0,75,up,1,0.8398729000000458,None,0,75,0,75,0,123.8182096999999,,123.802052,123.8182096999999,124.80091809999976,124.81758579999996,125.65003809999962,up,1,0.8398729000000458,None,0,fin,001,2025-09-07_19h19.59.731,signal detection,,2025.1.1,60.09525097279052,2025-09-07 19h20.08.677252 +0530,
76,0,76,down,1,0.5311657000002015,None,4,76,0,76,0,125.6663553999997,,125.65049679999993,125.6663553999997,126.66575280000006,126.66575280000006,127.19945839999991,down,1,0.5311657000002015,None,4,fin,001,2025-09-07_19h19.59.731,signal detection,,2025.1.1,60.09525097279052,2025-09-07 19h20.08.677252 +0530,
77,0,77,down,0,0.5738031000000774,None,0,77,0,77,0,127.21506669999962,,127.19987820000006,127.21506669999962,128.2138516,128.23051039999973,128.7973447999998,down,0,0.5738031000000774,None,0,fin,001,2025-09-07_19h19.59.731,signal detection,,2025.1.1,60.09525097279052,2025-09-07 19h20.08.677252 +0530,
78,0,78,up,1,0.9337990999997601,None,0,78,0,78,0,128.81311519999963,,128.79776449999963,128.81311519999963,129.81217070000002,129.81217070000002,130.76175990000002,up,1,0.9337990999997601,None,0,fin,001,2025-09-07_19h19.59.731,signal detection,,2025.1.1,60.09525097279052,2025-09-07 19h20.08.677252 +0530,
79,0,79,up,1,0.6071213000000171,None,0,79,0,79,0,130.77792,,130.76217559999986,130.77792,131.77734759999976,131.77734759999976,132.3936902999999,up,1,0.6071213000000171,None,0,fin,001,2025-09-07_19h19.59.731,signal detection,,2025.1.1,60.09525097279052,2025-09-07 19h20.08.677252 +0530,
80,0,80,up,1,0.7368044999998347,None,0,80,0,80,0,132.4097299,,132.39413319999994,132.4097299,133.4087012,133.42532600000004,134.1588652999999,up,1,0.7368044999998347,None,0,fin,001,2025-09-07_19h19.59.731,signal detection,,2025.1.1,60.09525097279052,2025-09-07 19h20.08.677252 +0530,
81,0,81,down,0,0.6493873999997959,None,0,81,0,81,0,134.17441109999982,,134.15928129999975,134.17441109999982,135.17248359999985,135.18949169999996,135.82445489999964,down,0,0.6493873999997959,None,0,fin,001,2025-09-07_19h19.59.731,signal detection,,2025.1.1,60.09525097279052,2025-09-07 19h20.08.677252 +0530,
82,0,82,down,0,0.5881178999998156,None,0,82,0,82,0,135.83986119999963,,135.82489989999976,135.83986119999963,136.83869779999986,136.8552821999997,137.4383168999998,down,0,0.5881178999998156,None,0,fin,001,2025-09-07_19h19.59.731,signal detection,,2025.1.1,60.09525097279052,2025-09-07 19h20.08.677252 +0530,
83,0,83,down,0,0.6557161999999153,None,0,83,0,83,0,137.4542210999998,,137.43874179999966,137.4542210999998,138.4536165999998,138.4536165999998,139.12038540000003,down,0,0.6557161999999153,None,0,fin,001,2025-09-07_19h19.59.731,signal detection,,2025.1.1,60.09525097279052,2025-09-07 19h20.08.677252 +0530,
84,0,84,down,1,0.5175318999999945,None,-2,84,0,84,0,139.13620139999966,,139.12087040000006,139.13620139999966,140.13532769999983,140.13532769999983,140.6691894999999,down,1,0.5175318999999945,None,-2,fin,001,2025-09-07_19h19.59.731,signal detection,,2025.1.1,60.09525097279052,2025-09-07 19h20.08.677252 +0530,
85,0,85,up,0,0.7308497000003626,None,2,85,0,85,0,140.68461720000005,,140.66964589999998,140.68461720000005,141.68370860000005,141.68370860000005,142.41697339999973,up,0,0.7308497000003626,None,2,fin,001,2025-09-07_19h19.59.731,signal detection,,2025.1.1,60.09525097279052,2025-09-07 19h20.08.677252 +0530,
86,0,86,down,0,0.658400299999812,None,0,86,0,86,0,142.43332569999984,,142.41741469999988,142.43332569999984,143.4320660999997,143.44866149999962,144.09838020000007,down,0,0.658400299999812,None,0,fin,001,2025-09-07_19h19.59.731,signal detection,,2025.1.1,60.09525097279052,2025-09-07 19h20.08.677252 +0530,
87,0,87,down,0,0.5099061999999321,None,0,87,0,87,0,144.11463189999995,,144.0987941999997,144.11463189999995,145.11383019999994,145.11383019999994,145.63033289999976,down,0,0.5099061999999321,None,0,fin,001,2025-09-07_19h19.59.731,signal detection,,2025.1.1,60.09525097279052,2025-09-07 19h20.08.677252 +0530,
88,0,88,down,0,0.56314250000014,None,0,88,0,88,0,145.6468090999997,,145.63078640000003,145.6468090999997,146.64554520000002,146.66220629999998,147.2131906999998,down,0,0.56314250000014,None,0,fin,001,2025-09-07_19h19.59.731,signal detection,,2025.1.1,60.09525097279052,2025-09-07 19h20.08.677252 +0530,
89,0,89,up,1,0.5862857000001895,None,0,89,0,89,0,147.22848479999993,,147.21366519999992,147.22848479999993,148.2277721999999,148.2277721999999,148.82757249999986,up,1,0.5862857000001895,None,0,fin,001,2025-09-07_19h19.59.731,signal detection,,2025.1.1,60.09525097279052,2025-09-07 19h20.08.677252 +0530,
90,0,90,down,1,0.611671699999988,None,-5,90,0,90,0,148.84323249999989,,148.82805419999977,148.84323249999989,149.84227459999966,149.84227459999966,150.4590389,down,1,0.611671699999988,None,-5,fin,001,2025-09-07_19h19.59.731,signal detection,,2025.1.1,60.09525097279052,2025-09-07 19h20.08.677252 +0530,
91,0,91,down,0,0.7457203999997546,None,0,91,0,91,0,150.47526089999974,,150.4594508,150.47526089999974,151.47403599999961,151.49109099999987,152.223567,down,0,0.7457203999997546,None,0,fin,001,2025-09-07_19h19.59.731,signal detection,,2025.1.1,60.09525097279052,2025-09-07 19h20.08.677252 +0530,
92,0,92,up,1,0.6526718000000074,None,0,92,0,92,0,152.23994879999964,,152.22401349999973,152.23994879999964,153.2389521,153.25561479999988,153.90559359999997,up,1,0.6526718000000074,None,0,fin,001,2025-09-07_19h19.59.731,signal detection,,2025.1.1,60.09525097279052,2025-09-07 19h20.08.677252 +0530,
93,0,93,up,1,0.6498983999999837,None,0,93,0,93,0,153.92165849999992,,153.90602009999975,153.92165849999992,154.9208805999997,154.9208805999997,155.58768710000004,up,1,0.6498983999999837,None,0,fin,001,2025-09-07_19h19.59.731,signal detection,,2025.1.1,60.09525097279052,2025-09-07 19h20.08.677252 +0530,
94,0,94,up,0,0.6577062000001206,None,1,94,0,94,0,155.6036835,,155.58816720000004,155.6036835,156.60276139999996,156.61927549999973,157.2686233999998,up,0,0.6577062000001206,None,1,fin,001,2025-09-07_19h19.59.731,signal detection,,2025.1.1,60.09525097279052,2025-09-07 19h20.08.677252 +0530,
95,0,95,down,1,0.9930542000001878,None,-2,95,0,95,0,157.28481489999967,,157.26908939999976,157.28481489999967,158.2840916,158.2840916,159.28335579999975,down,1,0.9930542000001878,None,-2,fin,001,2025-09-07_19h19.59.731,signal detection,,2025.1.1,60.09525097279052,2025-09-07 19h20.08.677252 +0530,
96,0,96,up,0,0.44501579999996466,None,-5,96,0,96,0,159.29995199999985,,159.2838171999997,159.29995199999985,160.29858990000002,160.31519369999978,160.74891239999988,up,0,0.44501579999996466,None,-5,fin,001,2025-09-07_19h19.59.731,signal detection,,2025.1.1,60.09525097279052,2025-09-07 19h20.08.677252 +0530,
97,0,97,down,1,0.5283190999998624,None,2,97,0,97,0,160.7652109999999,,160.74938269999984,160.7652109999999,161.76399429999992,161.7807912999997,162.29699149999988,down,1,0.5283190999998624,None,2,fin,001,2025-09-07_19h19.59.731,signal detection,,2025.1.1,60.09525097279052,2025-09-07 19h20.08.677252 +0530,
98,0,98,down,0,0.5751779999995961,None,0,98,0,98,0,162.31323559999964,,162.29741539999986,162.31323559999964,163.31228169999986,163.32926569999972,163.89530429999968,down,0,0.5751779999995961,None,0,fin,001,2025-09-07_19h19.59.731,signal detection,,2025.1.1,60.09525097279052,2025-09-07 19h20.08.677252 +0530,
99,0,99,up,1,0.5842713000001822,None,0,99,0,99,0,163.9115483999999,,163.8957206,163.9115483999999,164.91064340000003,164.91064340000003,165.51134279999997,up,1,0.5842713000001822,None,0,fin,001,2025-09-07_19h19.59.731,signal detection,,2025.1.1,60.09525097279052,2025-09-07 19h20.08.677252 +0530,
